Stored State Points:
state    T (deg C)      p (bar)    d (kg/m3)    h (kJ/kg)  s (kJ/kg/K)
    0       27.850        5.347       24.601      418.344        1.752
    1       28.922        5.481       25.170      419.078        1.752
    2       29.997        5.618       25.752      419.814        1.753
    3       31.075        5.759       26.349      420.552        1.754
    4       32.157        5.903       26.960      421.291        1.754
    5       33.243        6.051       27.586      422.032        1.755
    6       34.332        6.203       28.228      422.775        1.756
    7       35.425        6.358       28.885      423.520        1.756
    8       36.522        6.517       29.559      424.266        1.757
    9       37.622        6.681       30.249      425.014        1.758
   10       38.727        6.848       30.956      425.764        1.758
   11       39.835        7.020       31.681      426.515        1.759
   12       40.946        7.196       32.424      427.268        1.760
   13       42.062        7.376       33.186      428.023        1.760
   14       43.182        7.561       33.966      428.779        1.761
   15       44.306        7.750       34.766      429.537        1.762
   16       45.434        7.945       35.586      430.297        1.762
   17       46.566        8.144       36.427      431.058        1.763
   18       47.702        8.348       37.289      431.821        1.763
   19       48.843        8.557       38.173      432.585        1.764
   20       49.987        8.771       39.079      433.351        1.765
   21       51.136        8.991       40.008      434.119        1.765
   22       52.290        9.217       40.960      434.887        1.766
   23       53.448        9.448       41.937      435.658        1.767
   24       54.611        9.684       42.939      436.430        1.767
   25       55.778        9.927       43.966      437.203        1.768
   26       56.950       10.176       45.020      437.978        1.769
   27       58.126       10.431       46.101      438.755        1.769
   28       59.308       10.692       47.210      439.532        1.770
   29       60.494       10.960       48.347      440.311        1.771
   30       61.685       11.235       49.514      441.092        1.771
   31       62.881       11.516       50.711      441.874        1.772
   32       64.082       11.805       51.939      442.657        1.773
   33       65.289       12.101       53.199      443.442        1.773
   34       66.500       12.404       54.492      444.227        1.774
   35       67.717       12.715       55.819      445.015        1.775
   36       68.939       13.034       57.181      445.803        1.775
   37       70.167       13.360       58.578      446.593        1.776
   38       71.400       13.695       60.013      447.383        1.777
   39       72.639       14.038       61.485      448.175        1.777
   40       73.883       14.390       62.997      448.969        1.778
   41       75.133       14.751       64.548      449.763        1.779
   42       76.389       15.121       66.141      450.559        1.779
   43       77.651       15.499       67.776      451.355        1.780
   44       78.919       15.888       69.455      452.153        1.781
   45       80.193       16.286       71.179      452.952        1.781
   46       81.473       16.694       72.949      453.752        1.782
   47       82.759       17.113       74.767      454.552        1.782
   48       84.051       17.542       76.634      455.354        1.783
   49       85.350       17.981       78.552      456.157        1.784
   50       85.350       17.981       78.552      456.157        1.784
   51       82.152       17.981       80.240      452.320        1.773
   52       78.998       17.981       82.038      448.482        1.762
   53       75.897       17.981       83.958      444.644        1.751
   54       72.856       17.981       86.014      440.807        1.740
   55       69.888       17.981       88.222      436.969        1.729
   56       67.004       17.981       90.601      433.131        1.718
   57       64.220       17.981       93.175      429.294        1.707
   58       62.850       17.981       95.780      425.456        1.695
   59       62.850       17.981       98.351      421.618        1.684
   60       62.850       17.981      101.063      417.781        1.672
   61       62.850       17.981      103.930      413.943        1.661
   62       62.850       17.981      106.963      410.105        1.649
   63       62.850       17.981      110.179      406.268        1.638
   64       62.850       17.981      113.595      402.430        1.627
   65       62.850       17.981      117.229      398.592        1.615
   66       62.850       17.981      121.103      394.755        1.604
   67       62.850       17.981      125.241      390.917        1.592
   68       62.850       17.981      129.673      387.079        1.581
   69       62.850       17.981      134.430      383.242        1.569
   70       62.850       17.981      139.549      379.404        1.558
   71       62.850       17.981      145.074      375.566        1.547
   72       62.850       17.981      151.054      371.729        1.535
   73       62.850       17.981      157.548      367.891        1.524
   74       62.850       17.981      164.626      364.053        1.512
   75       62.850       17.981      172.369      360.216        1.501
   76       62.850       17.981      180.877      356.378        1.490
   77       62.850       17.981      190.269      352.540        1.478
   78       62.850       17.981      200.689      348.703        1.467
   79       62.850       17.981      212.317      344.865        1.455
   80       62.850       17.981      225.374      341.027        1.444
   81       62.850       17.981      240.143      337.190        1.432
   82       62.850       17.981      256.984      333.352        1.421
   83       62.850       17.981      276.365      329.514        1.410
   84       62.850       17.981      298.907      325.677        1.398
   85       62.850       17.981      325.453      321.839        1.387
   86       62.850       17.981      357.175      318.001        1.375
   87       62.850       17.981      395.747      314.164        1.364
   88       62.850       17.981      443.660      310.326        1.352
   89       62.850       17.981      504.771      306.488        1.341
   90       62.850       17.981      585.408      302.651        1.330
   91       62.850       17.981      696.707      298.813        1.318
   92       62.850       17.981      860.260      294.975        1.307
   93       62.232       17.981     1041.360      291.138        1.295
   94       59.932       17.981     1054.961      287.300        1.284
   95       57.590       17.981     1068.168      283.462        1.272
   96       55.207       17.981     1081.018      279.625        1.261
   97       52.789       17.981     1093.544      275.787        1.249
   98       50.335       17.981     1105.775      271.950        1.237
   99       47.850       17.981     1117.734      268.112        1.225
  100       47.850       17.981     1117.734      268.112        1.225
  101       47.841       17.542     1117.348      268.112        1.225
  102       47.832       17.113     1116.971      268.112        1.225
  103       47.823       16.694     1116.602      268.112        1.226
  104       47.814       16.286     1116.241      268.112        1.226
  105       47.805       15.888     1115.887      268.112        1.226
  106       47.797       15.499     1115.542      268.112        1.226
  107       47.788       15.121     1115.204      268.112        1.226
  108       47.780       14.751     1114.873      268.112        1.226
  109       47.772       14.390     1114.550      268.112        1.226
  110       47.764       14.038     1114.234      268.112        1.226
  111       47.756       13.695     1113.925      268.112        1.226
  112       47.748       13.360     1113.623      268.112        1.226
  113       47.741       13.034     1113.328      268.112        1.227
  114       47.733       12.715     1113.039      268.112        1.227
  115       47.607       12.404     1091.403      268.112        1.227
  116       46.640       12.101      941.287      268.112        1.227
  117       45.679       11.805      824.009      268.112        1.227
  118       44.724       11.516      729.927      268.112        1.227
  119       43.775       11.235      652.837      268.112        1.227
  120       42.832       10.960      588.563      268.112        1.227
  121       41.894       10.692      534.196      268.112        1.228
  122       40.962       10.431      487.641      268.112        1.228
  123       40.036       10.176      447.356      268.112        1.228
  124       39.116        9.927      412.178      268.112        1.228
  125       38.201        9.684      381.216      268.112        1.228
  126       37.292        9.448      353.772      268.112        1.228
  127       36.389        9.217      329.297      268.112        1.229
  128       35.491        8.991      307.346      268.112        1.229
  129       34.599        8.771      287.561      268.112        1.229
  130       33.712        8.557      269.649      268.112        1.229
  131       32.830        8.348      253.365      268.112        1.230
  132       31.954        8.144      238.506      268.112        1.230
  133       31.083        7.945      224.901      268.112        1.230
  134       30.218        7.750      212.406      268.112        1.230
  135       29.358        7.561      200.896      268.112        1.231
  136       28.503        7.376      190.267      268.112        1.231
  137       27.653        7.196      180.425      268.112        1.231
  138       26.809        7.020      171.292      268.112        1.232
  139       25.970        6.848      162.800      268.112        1.232
  140       25.135        6.681      154.886      268.112        1.232
  141       24.306        6.517      147.498      268.112        1.233
  142       23.482        6.358      140.590      268.112        1.233
  143       22.663        6.203      134.118      268.112        1.234
  144       21.849        6.051      128.047      268.112        1.234
  145       21.039        5.903      122.344      268.112        1.234
  146       20.235        5.759      116.978      268.112        1.235
  147       19.435        5.618      111.923      268.112        1.235
  148       18.640        5.481      107.155      268.112        1.236
  149       17.850        5.347      102.654      268.112        1.236
  150       17.850        5.347      102.654      268.112        1.236
  151       17.850        5.347       96.445      271.178        1.247
  152       17.850        5.347       90.944      274.244        1.257
  153       17.850        5.347       86.037      277.310        1.268
  154       17.850        5.347       81.632      280.376        1.278
  155       17.850        5.347       77.656      283.442        1.289
  156       17.850        5.347       74.050      286.508        1.299
  157       17.850        5.347       70.764      289.574        1.310
  158       17.850        5.347       67.757      292.640        1.320
  159       17.850        5.347       64.995      295.706        1.331
  160       17.850        5.347       62.449      298.772        1.341
  161       17.850        5.347       60.096      301.837        1.352
  162       17.850        5.347       57.913      304.903        1.362
  163       17.850        5.347       55.883      307.969        1.373
  164       17.850        5.347       53.991      311.035        1.384
  165       17.850        5.347       52.223      314.101        1.394
  166       17.850        5.347       50.567      317.167        1.405
  167       17.850        5.347       49.012      320.233        1.415
  168       17.850        5.347       47.551      323.299        1.426
  169       17.850        5.347       46.174      326.365        1.436
  170       17.850        5.347       44.874      329.431        1.447
  171       17.850        5.347       43.646      332.497        1.457
  172       17.850        5.347       42.483      335.563        1.468
  173       17.850        5.347       41.381      338.629        1.478
  174       17.850        5.347       40.334      341.695        1.489
  175       17.850        5.347       39.339      344.761        1.499
  176       17.850        5.347       38.392      347.827        1.510
  177       17.850        5.347       37.489      350.893        1.521
  178       17.850        5.347       36.628      353.959        1.531
  179       17.850        5.347       35.805      357.025        1.542
  180       17.850        5.347       35.019      360.091        1.552
  181       17.850        5.347       34.266      363.157        1.563
  182       17.850        5.347       33.546      366.223        1.573
  183       17.850        5.347       32.854      369.289        1.584
  184       17.850        5.347       32.191      372.355        1.594
  185       17.850        5.347       31.554      375.421        1.605
  186       17.850        5.347       30.942      378.487        1.615
  187       17.850        5.347       30.353      381.553        1.626
  188       17.850        5.347       29.786      384.619        1.636
  189       17.850        5.347       29.240      387.685        1.647
  190       17.850        5.347       28.713      390.751        1.657
  191       17.850        5.347       28.205      393.817        1.668
  192       17.850        5.347       27.715      396.882        1.679
  193       17.850        5.347       27.241      399.948        1.689
  194       17.850        5.347       26.784      403.014        1.700
  195       17.850        5.347       26.341      406.080        1.710
  196       18.395        5.347       25.905      409.146        1.721
  197       21.521        5.347       25.449      412.212        1.731
  198       24.675        5.347       25.015      415.278        1.742
  199       27.850        5.347       24.601      418.344        1.752

